time,seconds_elapsed,z,y,x
1693771706052334800,0.0503349609375,0,0,0
1693771706071244000,0.069244140625,0.19988632202148438,0.10204631090164185,-0.18710613250732422
1693771706090153000,0.088153076171875,-0.15108442306518555,0.04113274812698364,0.027801513671875
1693771706109062100,0.107062255859375,-1.2329106330871582,0.036644816398620605,0.4024076461791992
1693771706127971000,0.12597119140625,-1.7826974391937256,0.25494009256362915,0.4011659622192383
1693771706146880300,0.14488037109375,-1.9516799449920654,0.31458234786987305,0.827387809753418
1693771706165789200,0.1637890625,-1.5920486450195312,-0.19882988929748535,0.7441463470458984
1693771706184698400,0.182698486328125,-1.5268232822418213,-0.28867894411087036,0.3674488067626953
1693771706203607600,0.201607666015625,-1.6245715618133545,0.41220909357070923,0.5729761123657227
1693771706222516500,0.2205166015625,-1.6281071901321411,0.7797046303749084,1.8334674835205078
1693771706241425700,0.23942578125,-2.0616614818573,1.0396047830581665,3.291985511779785
1693771706260334600,0.25833447265625,-2.245290994644165,0.0031901001930236816,2.989675521850586
1693771706279243800,0.277243896484375,-2.168715238571167,0.5339213609695435,2.784956932067871
1693771706298152700,0.296152587890625,-0.8974039554595947,-0.5514044761657715,3.0974855422973633
1693771706317062000,0.315061767578125,0.43894410133361816,-0.1761675477027893,3.2317943572998047
1693771706335970800,0.333970703125,0.849365770816803,-0.5021678805351257,3.3140125274658203
1693771706354880000,0.3528798828125,1.0690181255340576,-1.0256695747375488,2.8372039794921875
1693771706373789200,0.3717890625,1.6636579036712646,-1.7404019832611084,1.4005413055419922
1693771706392698000,0.390697998046875,3.2625961303710938,-1.547688364982605,1.5005836486816406
1693771706411607300,0.409607177734375,4.604277610778809,-2.0074830055236816,2.3369579315185547
1693771706430516200,0.42851611328125,5.298603534698486,-2.539128303527832,0.9613723754882812
1693771706449425400,0.44742529296875,4.9884538650512695,-2.085113763809204,-0.5256071090698242
1693771706468334300,0.466334228515625,4.466994285583496,-1.758014440536499,0.5133094787597656
1693771706487243500,0.485243408203125,3.4584264755249023,-1.5164815187454224,1.4036540985107422
1693771706506152700,0.504152587890625,3.426673650741577,-1.6237034797668457,0.5905027389526367
1693771706525061600,0.5230615234375,4.8822021484375,-1.7731636762619019,-0.954986572265625
1693771706543970800,0.541970703125,5.814426422119141,-1.8200541734695435,0.473114013671875
1693771706562895000,0.56089501953125,6.116790771484375,-1.6562825441360474,-0.29256534576416016
1693771706581789000,0.579788818359375,5.3967742919921875,-1.6575562953948975,-1.6389961242675781
1693771706600697900,0.59869775390625,6.829916477203369,-1.828673243522644,0.9068403244018555
1693771706619607000,0.61760693359375,8.04623794555664,-2.4059605598449707,-0.5955429077148438
1693771706638516200,0.63651611328125,6.170051574707031,-2.6138882637023926,-3.307117462158203
1693771706657425200,0.655425048828125,3.5315213203430176,-3.484022617340088,-4.565679550170898
1693771706676334300,0.674334228515625,4.42851448059082,-3.1001663208007812,-6.803638458251953
1693771706695243300,0.6932431640625,4.882857322692871,-3.5072357654571533,-5.344116687774658
1693771706714152400,0.71215234375,3.70542573928833,-4.088775157928467,-4.17449951171875
1693771706733061600,0.7310615234375,1.3786234855651855,-4.541286468505859,-6.1840410232543945
1693771706751970600,0.749970458984375,2.2437238693237305,-2.722292900085449,-5.309441566467285
1693771706770879700,0.768879638671875,2.304482936859131,-0.3056049346923828,1.4404926300048828
1693771706789789000,0.787788818359375,-2.049942970275879,1.3217322826385498,6.786400318145752
1693771706808697900,0.80669775390625,-4.1766157150268555,1.1000218391418457,3.588937282562256
1693771706827607000,0.82560693359375,1.8521528244018555,-0.06696772575378418,0.8260831832885742
1693771706846516000,0.844515869140625,5.62858772277832,-1.3845582008361816,0.25752973556518555
1693771706865425200,0.863425048828125,3.99668025970459,-1.1449649333953857,-1.3150815963745117
1693771706884334300,0.882334228515625,3.3233327865600586,-0.9982893466949463,-1.690382957458496
1693771706903243300,0.9012431640625,3.4892654418945312,-1.1586079597473145,-0.7333712577819824
1693771706922152400,0.92015234375,2.737185478210449,-1.5400563478469849,-1.4193992614746094
1693771706941061600,0.9390615234375,3.283254623413086,-1.5091636180877686,-3.1582484245300293
1693771706959970600,0.957970458984375,4.414987564086914,-0.6820681095123291,-2.2786104679107666
1693771706978879700,0.976879638671875,3.396179676055908,-0.6847832202911377,0.9082627296447754
1693771706997788700,0.99578857421875,1.3639955520629883,-0.5871498584747314,-0.13400936126708984
1693771707016697900,1.01469775390625,1.126312255859375,-0.4992794990539551,-2.511885166168213
1693771707035607000,1.03360693359375,3.525869369506836,-1.1803020238876343,-2.6497185230255127
1693771707054516000,1.052515869140625,3.8565921783447266,-2.045572519302368,-3.0764970779418945
1693771707073425200,1.071425048828125,3.5211124420166016,-1.3161041736602783,-4.102839946746826
1693771707092334300,1.090334228515625,4.931493759155273,-0.6666791439056396,-3.830934762954712
1693771707111243300,1.1092431640625,5.792352676391602,0.003075838088989258,-1.856618881225586
1693771707130152400,1.12815234375,6.649803161621094,-0.04560971260070801,-0.37909460067749023
1693771707149061600,1.1470615234375,6.131589412689209,0.1778564453125,-2.4701948165893555
1693771707167970600,1.165970458984375,7.394497871398926,-1.1996946334838867,-6.521384239196777
1693771707186879700,1.184879638671875,9.041831016540527,-0.9975419044494629,-6.263136863708496
1693771707205789000,1.203788818359375,7.783974647521973,1.026747465133667,-0.44623327255249023
1693771707224697900,1.22269775390625,7.736424446105957,2.3314497470855713,2.5548925399780273
1693771707243607000,1.24160693359375,9.232903480529785,0.07646536827087402,0.9284524917602539
1693771707262516200,1.26051611328125,5.680862903594971,-2.5460245609283447,-4.519584655761719
1693771707281425200,1.279425048828125,2.2513413429260254,-1.5214895009994507,-4.601491451263428
1693771707300334300,1.298334228515625,1.6417365074157715,-1.4566220045089722,-0.034459590911865234
1693771707319243500,1.317243408203125,5.306663513183594,-3.6204566955566406,-2.4971084594726562
1693771707338152400,1.33615234375,3.7444348335266113,-2.197108030319214,-2.42791748046875
1693771707357061600,1.3550615234375,0.33172130584716797,-1.0278253555297852,2.946133613586426
1693771707375970800,1.373970703125,-1.9773588180541992,-1.0303668975830078,3.211277961730957
1693771707394879700,1.392879638671875,-3.682338237762451,-0.878555178642273,3.0479679107666016
1693771707413789000,1.411788818359375,-3.628605842590332,-0.45602697134017944,5.021157264709473
1693771707432698000,1.430697998046875,-5.029826641082764,-1.1692759990692139,2.8435587882995605
1693771707451607000,1.44960693359375,-4.60401725769043,-1.9462367296218872,0.16338586807250977
1693771707470516200,1.46851611328125,1.4046735763549805,-1.9334899187088013,0.5393424034118652
1693771707489425400,1.48742529296875,3.0267887115478516,-1.9934749603271484,2.1694579124450684
1693771707508334600,1.50633447265625,-1.409149169921875,-1.7062947750091553,3.0326523780822754
1693771707527243500,1.525243408203125,-5.403214931488037,-1.0505712032318115,2.559723377227783
1693771707546152700,1.544152587890625,-2.8477821350097656,-0.7379720211029053,2.3938231468200684
1693771707565062000,1.563061767578125,-0.44648170471191406,-1.373469591140747,1.932058334350586
1693771707583970800,1.581970703125,-2.1243505477905273,-1.231457233428955,1.3627114295959473
1693771707602880000,1.6008798828125,-5.072300434112549,-0.09123629331588745,2.768242835998535
1693771707621789200,1.6197890625,-3.5065932273864746,0.7686142921447754,5.047450065612793
1693771707640698000,1.638697998046875,1.6392822265625,-0.42296046018600464,3.586233139038086
1693771707659607300,1.657607177734375,1.3460326194763184,-1.6384981870651245,-1.0321688652038574
1693771707678516500,1.6765166015625,-3.438809394836426,-0.48223498463630676,-0.3300790786743164
1693771707697425700,1.69542578125,-6.280520915985107,0.1598680317401886,3.292752265930176
1693771707716334600,1.71433447265625,-4.057633399963379,0.04012346267700195,3.1477298736572266
1693771707735243800,1.733243896484375,-0.8739352226257324,-0.49135810136795044,-0.3872051239013672
1693771707754153000,1.752153076171875,0.47817444801330566,-0.662574827671051,-0.40943241119384766
1693771707773062000,1.771061767578125,2.369934320449829,-0.43180108070373535,0.5642948150634766
1693771707791971000,1.78997119140625,-0.1100466251373291,-0.39323729276657104,2.325362205505371
1693771707810880300,1.80888037109375,-2.1578967571258545,-0.17302024364471436,0.709498405456543
1693771707829789200,1.8277890625,-0.6391279697418213,-0.8970776200294495,-0.971954345703125
1693771707848698400,1.846698486328125,1.1289738416671753,-0.7270456552505493,0.023731231689453125
1693771707867607600,1.865607666015625,2.2157211303710938,-0.7413138151168823,1.3699283599853516
1693771707886516500,1.8845166015625,2.2365686893463135,-0.1530013084411621,0.14565372467041016
1693771707905425700,1.90342578125,2.4581873416900635,-0.7824400663375854,-0.5828933715820312
1693771707924334800,1.9223349609375,1.274552822113037,-1.3744621276855469,0.30034732818603516
1693771707943244000,1.941244140625,-0.43002796173095703,-0.022663235664367676,1.2913637161254883
1693771707962153000,1.960153076171875,-0.628582239151001,0.9502320289611816,2.6104507446289062
1693771707981062100,1.979062255859375,-0.5775728225708008,0.6607470512390137,3.753506660461426
1693771707999971300,1.997971435546875,-0.7951458692550659,0.38801825046539307,1.8617925643920898
1693771708018880300,2.01688037109375,-0.23643642663955688,0.9676108360290527,0.9266681671142578
1693771708037789400,2.03578955078125,1.2827640771865845,0.4373912811279297,2.119009017944336
1693771708056698600,2.05469873046875,-0.7236725091934204,-0.5509464740753174,3.3016433715820312
1693771708075607800,2.07360791015625,-2.280705213546753,0.17280292510986328,0.11591434478759766
1693771708094516700,2.092516845703125,-0.8225980997085571,-0.8496341705322266,-0.6387729644775391
1693771708113426000,2.111426025390625,1.7029657363891602,-0.9825127124786377,-2.484734535217285
1693771708132335000,2.130335205078125,3.966597557067871,-0.7046623229980469,1.5472698211669922
1693771708151244300,2.149244384765625,3.2978403568267822,0.5691874027252197,2.51743221282959
1693771708170153200,2.1681533203125,0.22645646333694458,-0.39202332496643066,0.7390003204345703
1693771708189062400,2.1870625,-0.675836980342865,0.04021501541137695,-1.2076549530029297
1693771708207971600,2.2059716796875,2.0138280391693115,-0.27112245559692383,4.578917503356934
1693771708226880800,2.224880859375,-1.8591499328613281,0.2747783660888672,5.098323822021484
1693771708245789700,2.243789794921875,-6.106404781341553,-0.2740519046783447,1.9893274307250977
1693771708264699000,2.262698974609375,-2.5908541679382324,-0.930229902267456,-0.4749746322631836
1693771708283608000,2.281608154296875,-0.6580811738967896,-0.9419629573822021,2.6099281311035156
1693771708302517000,2.30051708984375,-2.052523374557495,0.45113635063171387,3.8952293395996094
1693771708321426200,2.31942626953125,-3.6871371269226074,0.5392086505889893,2.9355268478393555
1693771708340335400,2.33833544921875,-3.2182061672210693,-0.46346116065979004,1.7911481857299805
1693771708359244500,2.35724462890625,-2.820157527923584,-0.5737969875335693,1.3604545593261719
1693771708378153500,2.376153564453125,-5.278195381164551,-0.8357784748077393,0.6676454544067383
1693771708397062700,2.395062744140625,-4.863422870635986,-2.2157981395721436,-3.0959367752075195
1693771708415971800,2.413971923828125,0.0862586498260498,-2.999314546585083,-3.260554313659668
1693771708434881000,2.432881103515625,-0.3103756904602051,-1.9435834884643555,-0.4953470230102539
1693771708453790000,2.4517900390625,-3.7703261375427246,-0.6940822601318359,1.057145118713379
1693771708472699100,2.47069921875,-3.631476879119873,-1.2989671230316162,-0.5910425186157227
1693771708491608300,2.4896083984375,-0.45104897022247314,-1.355015516281128,0.3464975357055664
1693771708510517500,2.508517578125,-0.640704333782196,-0.4649972915649414,3.001556396484375
1693771708529426400,2.527426513671875,-3.5814712047576904,-0.7192075252532959,2.4862146377563477
1693771708548335600,2.546335693359375,-7.641655921936035,-1.576038122177124,2.1641407012939453
1693771708567244800,2.565244873046875,-10.8798828125,-1.1603155136108398,2.877631187438965
1693771708586154000,2.584154052734375,-11.712667465209961,-0.20966863632202148,5.9686174392700195
1693771708605063200,2.603063232421875,-9.170470237731934,-2.2853517532348633,3.2529497146606445
1693771708623972000,2.62197216796875,-10.664583206176758,-4.1583099365234375,0.12620162963867188
1693771708642881300,2.64088134765625,-13.480315208435059,-2.5038111209869385,1.6656818389892578
1693771708661790500,2.65979052734375,-3.46304988861084,-0.5358517169952393,5.044981002807617
1693771708680699400,2.678699462890625,8.321270942687988,0.16146326065063477,7.659698486328125
1693771708699609000,2.697609130859375,10.633038520812988,1.0881156921386719,5.538969039916992
1693771708718517800,2.716517822265625,6.259710311889648,1.100172519683838,2.8733129501342773
1693771708737427000,2.735427001953125,4.593831539154053,-1.0995879173278809,-0.9067935943603516
1693771708756335900,2.7543359375,4.121484756469727,-1.801224708557129,-3.0346813201904297
1693771708775245000,2.7732451171875,4.81723690032959,-0.703606367111206,-0.9917545318603516
1693771708794154200,2.792154296875,-0.5764389038085938,-0.5405693054199219,-2.3218650817871094
1693771708813063400,2.8110634765625,-0.69559645652771,0.2863013744354248,-1.4040260314941406
1693771708831972600,2.82997265625,2.53782057762146,1.7485636472702026,3.105961799621582
1693771708850881500,2.848881591796875,1.4465566873550415,1.4924228191375732,2.5174102783203125
1693771708869790700,2.867790771484375,0.47944092750549316,-0.047607421875,0.33733177185058594
1693771708888700000,2.886699951171875,-1.819995641708374,-0.24645590782165527,0.0014448165893554688
1693771708907609000,2.905609130859375,0.7720105648040771,0.6083946228027344,2.0037479400634766
1693771708926518000,2.92451806640625,1.3644452095031738,0.6239466667175293,3.372921943664551
1693771708945427200,2.94342724609375,-0.6010222434997559,-0.49225759506225586,1.872732162475586
1693771708964336400,2.96233642578125,-3.362234115600586,-0.6832153797149658,1.0660486221313477
1693771708983245600,2.98124560546875,-5.561251640319824,0.23157930374145508,2.9777841567993164
1693771709002154500,3.000154541015625,-1.468447208404541,-0.4515206813812256,2.3818235397338867
1693771709021063700,3.019063720703125,4.612611293792725,-1.6718385219573975,1.4256877899169922
1693771709039972900,3.037972900390625,2.651859998703003,-1.0338194370269775,0.8460607528686523
1693771709058882000,3.056882080078125,-1.540132999420166,0.9119088649749756,3.21951961517334
1693771709077791000,3.075791015625,0.19515371322631836,0.35728728771209717,2.5149192810058594
1693771709096700200,3.0947001953125,3.1554312705993652,-0.7053773403167725,1.3627986907958984
1693771709115609300,3.113609375,1.2506566047668457,1.108258605003357,2.9839181900024414
1693771709134518500,3.1325185546875,0.04140758514404297,1.4018242359161377,5.06234884262085
1693771709153427700,3.151427734375,4.414531230926514,-2.4508469104766846,-1.261610984802246
1693771709172336600,3.170336669921875,5.762156009674072,-4.537320137023926,-5.2377448081970215
1693771709191245800,3.189245849609375,0.9640417098999023,-4.280548572540283,-7.512298107147217
1693771709210155000,3.208155029296875,3.945681095123291,-3.2035441398620605,-6.9837646484375
1693771709229064200,3.227064208984375,9.396370887756348,-2.977599859237671,-2.449392318725586
1693771709247973400,3.245973388671875,3.8578221797943115,-1.9450535774230957,-2.7404441833496094
1693771709266882300,3.26488232421875,-2.925421714782715,0.5862432718276978,-0.39680004119873047
1693771709285791500,3.28379150390625,-2.051708698272705,2.6053085327148438,4.931761264801025
1693771709304700700,3.30270068359375,-1.6626157760620117,4.748533248901367,9.962787628173828
1693771709323609600,3.321609619140625,-4.83248233795166,6.589402675628662,13.698318481445312
1693771709342518800,3.340518798828125,-5.739259243011475,-0.5416556000709534,4.540258884429932
1693771709361428000,3.359427978515625,5.668091773986816,-9.101030349731445,-10.582489013671875
1693771709380337200,3.378337158203125,11.989612579345703,-7.784275531768799,-12.645721435546875
1693771709399246300,3.397246337890625,4.719938278198242,-3.0550994873046875,-4.693881988525391
1693771709418155300,3.4161552734375,-1.693136215209961,0.3105759918689728,2.222506046295166
1693771709437064400,3.435064453125,-3.9142980575561523,2.31168794631958,5.060009479522705
1693771709455973600,3.4539736328125,-4.037356376647949,2.232785940170288,3.655109405517578
1693771709474882800,3.4728828125,0.33545780181884766,0.19195933640003204,0.5144791603088379
1693771709493792000,3.4917919921875,4.195247173309326,-1.8491463661193848,-1.31341552734375
1693771709512701000,3.510700927734375,5.802227973937988,-1.726867914199829,-0.927070140838623
1693771709531610000,3.529610107421875,1.8656134605407715,0.023816123604774475,-0.3944845199584961
1693771709550519300,3.548519287109375,-0.18232059478759766,-0.07556861639022827,0.10655784606933594
1693771709569428500,3.567428466796875,-4.09592342376709,-0.2825819253921509,0.5477018356323242
1693771709588337400,3.58633740234375,-6.053062438964844,0.1394554078578949,2.5630106925964355
1693771709607246600,3.60524658203125,-3.027151107788086,-0.23021447658538818,0.7251405715942383
1693771709626155800,3.62415576171875,3.910339832305908,-1.6981395483016968,0.13214540481567383
1693771709645065000,3.64306494140625,3.7216405868530273,-2.0001981258392334,-0.5851283073425293
1693771709663974000,3.661973876953125,-1.994537353515625,-1.1201010942459106,-0.7344193458557129
1693771709682883000,3.680883056640625,-3.450775146484375,-0.7393413186073303,-0.01925516128540039
1693771709701792300,3.699792236328125,0.42690086364746094,-1.067573070526123,0.7493047714233398
1693771709720701400,3.718701416015625,0.7325258255004883,0.13628089427947998,1.4474806785583496
1693771709739610600,3.737610595703125,-0.813995361328125,1.643140435218811,2.8233065605163574
1693771709758519800,3.756519775390625,-1.2907218933105469,0.7475438117980957,0.7310194969177246
1693771709777428700,3.7754287109375,2.816193103790283,-1.0249323844909668,-2.0567753314971924
1693771709796338000,3.794337890625,4.8376359939575195,-1.4609394073486328,-1.4487521648406982
1693771709815247000,3.8132470703125,2.1046857833862305,-0.8891196250915527,-2.03859543800354
1693771709834156300,3.83215625,1.4104385375976562,-1.2421374320983887,-0.2759275436401367
1693771709853065500,3.8510654296875,-0.9449825286865234,0.16782522201538086,1.902763843536377
1693771709871974400,3.869974365234375,-5.612668037414551,2.3660106658935547,4.521230697631836
1693771709890883600,3.888883544921875,-4.265329360961914,2.0639898777008057,3.684842586517334
1693771709909792800,3.907792724609375,2.5725326538085938,-1.4586873054504395,0.4844536781311035
1693771709928701700,3.92670166015625,7.022129058837891,-2.156338930130005,-2.5258963108062744
1693771709947611000,3.94561083984375,7.458657741546631,-0.7869220972061157,-1.928077220916748
1693771709966520000,3.96452001953125,5.208939552307129,-0.9467198848724365,-2.1716959476470947
1693771709985429200,3.98342919921875,1.899491310119629,0.12315285205841064,0.562298059463501
1693771710004338400,4.00233837890625,-1.510584831237793,2.058838367462158,2.265901803970337
1693771710023247400,4.021247314453125,1.2121458053588867,1.931365966796875,2.5854153633117676
1693771710042156500,4.040156494140625,6.914628028869629,-0.7706277370452881,-1.803213119506836
1693771710061065700,4.059065673828125,7.914146900177002,-1.1774966716766357,-3.623061180114746
1693771710079975000,4.077974853515625,0.4426698684692383,-1.4272605180740356,-3.1552186012268066
1693771710098884000,4.096884033203125,-3.4783830642700195,-0.8994989395141602,-6.003210067749023
1693771710117793300,4.115793212890625,3.3370532989501953,-0.6625559329986572,-5.283729553222656
1693771710136702200,4.1347021484375,8.159006118774414,0.6327087879180908,-0.21474528312683105
1693771710155611400,4.153611328125,8.494521141052246,1.6418852806091309,1.2140471935272217
1693771710174520600,4.1725205078125,5.947920322418213,0.9375748634338379,-2.0144362449645996
1693771710193429500,4.191429443359375,5.336544990539551,-0.5299502611160278,-4.902510166168213
1693771710212338700,4.210338623046875,6.8656086921691895,-1.0898250341415405,-5.684374809265137
1693771710231248000,4.229247802734375,9.268163681030273,-0.999744176864624,-1.9296597242355347
1693771710250157000,4.248156982421875,9.498141288757324,-0.9556548595428467,-1.851395606994629
1693771710269066200,4.267066162109375,7.463772296905518,-0.8332493305206299,-2.9291512966156006
1693771710287975200,4.28597509765625,5.478353500366211,0.03451955318450928,-0.45228099822998047
1693771710306884400,4.30488427734375,3.344667911529541,0.35702335834503174,2.6928327083587646
1693771710325793500,4.32379345703125,-0.9812078475952148,-0.8081014156341553,1.5853424072265625
1693771710344702700,4.34270263671875,-1.8503541946411133,-1.8849682807922363,-1.3080158233642578
1693771710363612000,4.36161181640625,3.3363990783691406,-2.1572980880737305,-1.5008883476257324
1693771710382520800,4.380520751953125,6.008097171783447,-1.9691951274871826,1.4022283554077148
1693771710401430000,4.399429931640625,0.5032048225402832,-1.2071725130081177,2.6307692527770996
1693771710420339200,4.418339111328125,-4.281152725219727,-1.2447712421417236,3.1185712814331055
1693771710439248400,4.437248291015625,-2.16347074508667,-1.1339586973190308,1.764540672302246
1693771710458157300,4.4561572265625,1.2684330940246582,-1.8565943241119385,2.2824206352233887
1693771710477066500,4.47506640625,-2.889039993286133,-0.8868820667266846,1.9312686920166016
1693771710495975700,4.4939755859375,-7.571872234344482,0.25107792019844055,1.7688193321228027
1693771710514884900,4.512884765625,-3.1082215309143066,0.3467879295349121,3.048462390899658
1693771710533794000,4.5317939453125,2.8134117126464844,-1.6978203058242798,3.4454379081726074
1693771710552703000,4.550702880859375,2.4842753410339355,-2.190523862838745,-0.5053644180297852
1693771710571612200,4.569612060546875,-0.8116941452026367,-2.5774998664855957,-2.050380229949951
1693771710590521300,4.588521240234375,-0.3415999412536621,-2.0566110610961914,0.18694496154785156
1693771710609430500,4.607430419921875,-0.28127479553222656,-0.5825729966163635,1.845435619354248
1693771710628339700,4.626339599609375,-0.09387826919555664,1.0173213481903076,4.024662494659424
1693771710647248600,4.64524853515625,1.6081619262695312,2.4648842811584473,7.592634677886963
1693771710666157800,4.66415771484375,-0.07328605651855469,2.1735081672668457,6.696255683898926
1693771710685067000,4.68306689453125,-2.821049690246582,1.1707566976547241,0.7497329711914062
1693771710703976200,4.70197607421875,2.6679108142852783,-1.150117039680481,-3.077617645263672
1693771710722885000,4.720885009765625,7.898736476898193,-2.440077066421509,-4.939873218536377
1693771710741794300,4.739794189453125,5.076740741729736,-2.7450153827667236,-1.1240043640136719
1693771710760703500,4.758703369140625,1.7439510822296143,-1.955193281173706,2.143824577331543
1693771710779612700,4.77761279296875,-2.659830093383789,-0.11822175979614258,1.0578947067260742
1693771710798521600,4.796521484375,-1.9089791774749756,0.5387586951255798,3.9159584045410156
1693771710817430800,4.8154306640625,-2.947416305541992,-0.90185546875,2.810394287109375
1693771710836340000,4.834340087890625,0.446835994720459,-2.0001943111419678,0.18271732330322266
1693771710855249200,4.853249267578125,-0.321901798248291,-1.6973291635513306,0.8295326232910156
1693771710874161200,4.8721611328125,-2.1971278190612793,-0.3687833547592163,3.019656181335449
1693771710893067300,4.8910673828125,-0.8622021675109863,-0.5729252099990845,1.4619941711425781
1693771710911976400,4.9099765625,-0.6950870752334595,-1.431625485420227,-0.5393896102905273
1693771710930885600,4.9288857421875,-0.7111244201660156,-2.35111665725708,3.8847532272338867
1693771710949794800,4.947794921875,-1.2869863510131836,-0.7600184679031372,9.231212615966797
1693771710968704000,4.9667041015625,-3.763091564178467,1.7423584461212158,4.674951553344727
1693771710987613200,4.98561328125,-0.5055341720581055,1.462080478668213,4.002222061157227
1693771711006522000,5.004522216796875,-3.4767603874206543,-1.2599549293518066,-0.9398069381713867
1693771711025431300,5.023431396484375,-1.3832951784133911,-2.287625789642334,-2.2818031311035156
1693771711044340200,5.04234033203125,0.1585516333580017,-0.4581282138824463,-0.3994483947753906
1693771711063249400,5.06124951171875,-6.859017372131348,2.2569825649261475,2.562765121459961
1693771711082158600,5.08015869140625,-9.004562377929688,3.524721145629883,7.570084571838379
1693771711101067800,5.09906787109375,-4.793506145477295,3.053408145904541,5.643762588500977
1693771711119977000,5.11797705078125,0.8478366136550903,1.4531538486480713,-0.3486213684082031
1693771711138886000,5.136885986328125,8.376429557800293,-0.3208479881286621,-0.9668121337890625
1693771711157795000,5.155795166015625,7.154262065887451,0.41700029373168945,4.330047607421875
1693771711176704300,5.174704345703125,-1.4610745906829834,0.025255680084228516,1.3219051361083984
1693771711195613400,5.193613525390625,-1.2467318773269653,-2.3231801986694336,-3.3312883377075195
1693771711214522600,5.212522705078125,-2.638136625289917,-3.660346031188965,-2.092465400695801
1693771711233431600,5.231431640625,-7.311282157897949,-2.7640461921691895,-1.3717613220214844
1693771711252340700,5.2503408203125,-6.398077487945557,-2.4523510932922363,-1.716233253479004
1693771711271250000,5.26925,-4.699314117431641,-2.8168463706970215,-3.745840072631836
1693771711290159000,5.2881591796875,5.140429973602295,-2.389216423034668,-3.472686767578125
1693771711309068300,5.307068359375,8.563014030456543,-1.7498681545257568,2.403728485107422
1693771711327977200,5.325977294921875,0.22401893138885498,-1.152036190032959,0.05155658721923828
1693771711346886400,5.344886474609375,-4.586188316345215,-1.9296603202819824,0.1811542510986328
1693771711365795600,5.363795654296875,-3.092974901199341,-0.91090989112854,-0.7743625640869141
1693771711384704500,5.38270458984375,0.43370968103408813,0.13309955596923828,5.779030799865723
1693771711403613700,5.40161376953125,-5.289834499359131,1.5238322019577026,7.509711265563965
1693771711422523000,5.42052294921875,-12.13861083984375,0.5068366527557373,5.705155372619629
1693771711441432000,5.43943212890625,-14.943131446838379,-0.34711122512817383,4.8306379318237305
1693771711460341200,5.45834130859375,-10.717754364013672,-0.5209786891937256,7.303126335144043
1693771711479250200,5.477250244140625,-10.774543762207031,-2.133179187774658,6.969775199890137
1693771711498159400,5.496159423828125,-12.738926887512207,-4.518831253051758,2.9237327575683594
1693771711517068500,5.515068603515625,-10.228788375854492,-4.983821868896484,2.010441780090332
1693771711535977700,5.533977783203125,-5.649174690246582,-3.8681530952453613,5.057572364807129
1693771711554887000,5.552886962890625,-2.32063364982605,-3.0966391563415527,5.90023136138916
1693771711573795800,5.5717958984375,-3.6060454845428467,-3.2731497287750244,3.6849746704101562
1693771711592705000,5.590705078125,-1.5627154111862183,-2.487647771835327,2.4064807891845703
1693771711611614200,5.6096142578125,7.386301040649414,-0.04749035835266113,2.6593408584594727
1693771711630523400,5.6285234375,17.228469848632812,1.7107809782028198,3.1909971237182617
1693771711649432300,5.647432373046875,13.672298431396484,2.9875435829162598,3.7339134216308594
1693771711668341500,5.666341552734375,5.864838123321533,5.21616268157959,3.6330795288085938
1693771711687250700,5.685250732421875,3.4048948287963867,3.6092987060546875,3.470583915710449
1693771711706159600,5.70415966796875,4.090102195739746,1.1003766059875488,-0.44570350646972656
1693771711725068800,5.72306884765625,0.2576436996459961,-1.6463699340820312,-0.94781494140625
1693771711743978000,5.74197802734375,-5.086777687072754,-3.3732473850250244,-3.433619499206543
1693771711762887200,5.76088720703125,2.325739860534668,-3.606260299682617,-2.6652822494506836
1693771711781796400,5.77979638671875,0.7276356220245361,-2.26969313621521,-0.8632707595825195
1693771711800705300,5.798705322265625,-5.245983123779297,-0.47010135650634766,2.0762739181518555
1693771711819614500,5.817614501953125,-6.493913650512695,0.24475502967834473,3.5143041610717773
1693771711838523600,5.836523681640625,0.25879383087158203,0.08822202682495117,5.582141876220703
1693771711857432800,5.855432861328125,0.9495434761047363,-0.010091066360473633,3.0534324645996094
1693771711876342000,5.874342041015625,1.4449963569641113,-0.4108465909957886,-0.18391942977905273
1693771711895251000,5.8932509765625,6.032365322113037,-1.0077450275421143,-0.7547245025634766
1693771711914160000,5.91216015625,10.422653198242188,0.39724457263946533,1.7418909072875977
1693771711933069300,5.9310693359375,6.913629531860352,1.1306090354919434,1.1822733879089355
1693771711951978500,5.949978515625,3.988856792449951,-0.4054189920425415,-0.22420215606689453
1693771711970887400,5.968887451171875,1.5018620491027832,-2.5990591049194336,-4.2073774337768555
1693771711989796600,5.987796630859375,4.827746391296387,-1.1955257654190063,-3.4884510040283203
1693771712008705800,6.006705810546875,4.078274726867676,-0.31134212017059326,-1.5973505973815918
1693771712027614700,6.02561474609375,-2.099018096923828,0.029558181762695312,0.7433342933654785
1693771712046524000,6.04452392578125,-4.129986763000488,1.6248054504394531,2.8836922645568848
1693771712065433000,6.06343310546875,-2.7276015281677246,0.5173336863517761,2.1835575103759766
1693771712084342300,6.08234228515625,2.744009017944336,-0.7551016211509705,0.1650395393371582
1693771712103251200,6.101251220703125,3.758925437927246,-1.3784050941467285,-0.7187504768371582
1693771712122160400,6.120160400390625,-0.4655489921569824,-0.9042383432388306,-1.0836992263793945
1693771712141069600,6.139069580078125,-3.251297950744629,-0.4676894545555115,1.9608654975891113
1693771712159978800,6.157978759765625,-4.485827922821045,-0.014506220817565918,2.4250569343566895
1693771712178888000,6.176887939453125,-2.155755043029785,0.6478420495986938,1.9044337272644043
1693771712197796900,6.195796875,0.5862975120544434,-0.01730501651763916,1.939345359802246
1693771712216706000,6.2147060546875,-0.6898832321166992,-0.7315685153007507,2.186392307281494
1693771712235615200,6.233615234375,-2.9483156204223633,-0.5990400314331055,2.849030017852783
1693771712254524400,6.2525244140625,-3.4475955963134766,0.020172685384750366,4.73367977142334
1693771712273433300,6.271433349609375,-1.2409448623657227,-0.5777220726013184,3.049825668334961
1693771712292342500,6.290342529296875,4.1743364334106445,-2.8746538162231445,0.24935293197631836
1693771712311251700,6.309251708984375,5.6392011642456055,-3.1112253665924072,-2.768126964569092
1693771712330160600,6.32816064453125,2.804227828979492,-1.6777479648590088,-0.387601375579834
1693771712349069800,6.34706982421875,-1.6176328659057617,-0.8185166120529175,1.054837703704834
1693771712367979000,6.36597900390625,-1.61676025390625,-1.0019503831863403,1.8298792839050293
1693771712386888200,6.38488818359375,0.5780324935913086,-0.8346608877182007,1.5042648315429688
1693771712405797000,6.403797119140625,2.3252429962158203,-1.530669927597046,-1.2329144477844238
1693771712424706300,6.422706298828125,4.855996131896973,-2.4132823944091797,-1.338573932647705
1693771712443615500,6.441615478515625,4.757575988769531,-1.309503197669983,-1.5979849100112915
1693771712462524700,6.460524658203125,5.349681377410889,0.14275020360946655,-0.3920409679412842
1693771712481433600,6.47943359375,5.297188758850098,0.5127891302108765,0.17437148094177246
1693771712500342800,6.4983427734375,3.7378292083740234,0.8233537673950195,1.2180290222167969
1693771712519252000,6.517251953125,4.133184432983398,1.279677152633667,0.6145501136779785
1693771712538161200,6.5361611328125,7.608504295349121,0.12251424789428711,-1.7318556308746338
1693771712557070300,6.5550703125,5.379364967346191,-1.52671480178833,-4.322246551513672
1693771712575979300,6.573979248046875,1.326035499572754,-0.5056855082511902,-2.6796748638153076
1693771712594888400,6.592888427734375,-1.0212268829345703,0.7593156099319458,0.19622802734375
1693771712613797600,6.611797607421875,1.047133445739746,0.11990118026733398,-0.9570043087005615
1693771712632706800,6.630706787109375,3.5520381927490234,-0.6164883375167847,-3.7125110626220703
1693771712651615700,6.64961572265625,3.793222427368164,-0.19436514377593994,-2.818915367126465
1693771712670525000,6.66852490234375,2.873404026031494,0.7469398975372314,-1.7484698295593262
1693771712689434000,6.68743408203125,3.6889548301696777,0.4780759811401367,-2.030632495880127
1693771712708343000,6.706343017578125,5.2935872077941895,0.8872714042663574,-2.9576659202575684
1693771712727252200,6.725252197265625,6.02138614654541,1.4060983657836914,-1.292203664779663
1693771712746161400,6.744161376953125,5.733254909515381,0.9831298589706421,-0.811384916305542
1693771712765070300,6.7630703125,7.218758583068848,-0.35850298404693604,-3.3764328956604004
1693771712783979500,6.7819794921875,6.936648368835449,-0.888927698135376,-5.425114631652832
1693771712802888700,6.800888671875,5.906264305114746,-0.3440067768096924,-3.986569404602051
1693771712821798000,6.8197978515625,6.551868438720703,0.21204113960266113,-0.5164270401000977
1693771712840707000,6.83870703125,7.6349873542785645,-0.1017451286315918,-0.9966354370117188
1693771712859616000,6.857615966796875,4.550425052642822,-0.7457787990570068,-2.315617799758911
1693771712878525200,6.876525146484375,1.3654508590698242,-0.22028672695159912,-0.9100170135498047
1693771712897434400,6.895434326171875,0.8754959106445312,0.8264666795730591,2.4244418144226074
1693771712916343600,6.914343505859375,0.5682706832885742,0.8203456401824951,2.777794361114502
1693771712935252500,6.93325244140625,1.0384421348571777,-0.4191300868988037,0.8127841949462891
1693771712954161700,6.95216162109375,1.1543750762939453,-1.319602131843567,-0.19574642181396484
1693771712973070800,6.97107080078125,0.5268449783325195,-1.4251741170883179,0.16547536849975586
1693771712991980000,6.98997998046875,0.6698789596557617,-1.1797693967819214,2.0560479164123535
1693771713010889000,7.008888916015625,1.3861021995544434,-1.1224141120910645,1.6993422508239746
1693771713029798100,7.027798095703125,-0.2393956184387207,-1.7090237140655518,0.7252030372619629
1693771713048707300,7.046707275390625,-1.2423949241638184,-2.9143316745758057,0.5716109275817871
1693771713067616500,7.065616455078125,-1.6046438217163086,-2.542339563369751,0.2051401138305664
1693771713086525400,7.084525390625,-2.0171046257019043,-1.4571783542633057,-0.18680429458618164
1693771713105434600,7.1034345703125,-0.49737977981567383,-0.9905909299850464,0.9098544120788574
1693771713124343800,7.12234375,-0.7758998870849609,-0.657505214214325,3.894782066345215
1693771713143252700,7.141252685546875,-0.49802350997924805,-0.19088664650917053,4.97562313079834
1693771713162162000,7.160161865234375,-1.4903898239135742,-0.6240847110748291,1.3159174919128418
1693771713181071000,7.179071044921875,-1.6738615036010742,-1.9580399990081787,-1.1965360641479492
1693771713199980000,7.19797998046875,0.7886185646057129,-1.5898184776306152,1.5274786949157715
1693771713218889200,7.21688916015625,2.971118450164795,-0.7075155973434448,3.0981574058532715
1693771713237798400,7.23579833984375,-1.0305585861206055,-1.295304536819458,0.2679176330566406
1693771713256707600,7.25470751953125,-3.188488006591797,-1.3077218532562256,-1.3401079177856445
1693771713275616500,7.273616455078125,0.528620719909668,0.5971235036849976,1.6321535110473633
1693771713294525700,7.292525634765625,3.6068224906921387,1.0652899742126465,4.958539009094238
1693771713313435000,7.311434814453125,2.351461410522461,-0.27853846549987793,1.979294776916504
1693771713332344000,7.330343994140625,-0.3393120765686035,-0.14844775199890137,1.6854543685913086
1693771713351253000,7.3492529296875,-4.872587203979492,1.0682175159454346,0.3336753845214844
1693771713370162200,7.368162109375,3.794139862060547,1.1868778467178345,3.6448850631713867
1693771713389071400,7.3870712890625,8.443588256835938,0.10429608821868896,4.029986381530762
1693771713407980500,7.40598046875,1.0767147541046143,-1.6308385133743286,-1.346609115600586
1693771713426889500,7.424889404296875,-4.390542984008789,-1.917788028717041,-3.18166446685791
1693771713445798700,7.443798583984375,-5.280089378356934,-0.23617911338806152,1.7745914459228516
1693771713464707800,7.462707763671875,-1.8842902183532715,1.8659675121307373,7.110654830932617
1693771713483617000,7.481616943359375,-1.8226699829101562,1.010627269744873,4.577611923217773
1693771713502526000,7.50052587890625,-2.770646333694458,-1.1513874530792236,-0.5927619934082031
1693771713521435100,7.51943505859375,-1.8280754089355469,-2.00162935256958,-1.6267204284667969
1693771713540344300,7.53834423828125,-1.0533764362335205,-0.6188602447509766,2.042181968688965
1693771713559253200,7.557253173828125,-3.0699660778045654,0.5767018795013428,5.267856597900391
1693771713578162400,7.576162353515625,-7.191954135894775,-0.010088682174682617,2.7254457473754883
1693771713597071600,7.595071533203125,-8.142351150512695,-0.6094839572906494,0.8404245376586914
1693771713615980500,7.61398046875,-5.311785697937012,-0.5435130596160889,2.7073726654052734
1693771713634889700,7.6328896484375,-3.6638355255126953,-0.8244247436523438,3.236968994140625
1693771713653799000,7.651798828125,-1.3996057510375977,-2.5765316486358643,-1.9637441635131836
1693771713672708000,7.6707080078125,2.279491424560547,-3.174757957458496,-4.361136436462402
1693771713691617000,7.689616943359375,4.172903537750244,-1.5242605209350586,-0.5413351058959961
1693771713710526200,7.708526123046875,2.223571300506592,0.7602022886276245,3.414163589477539
1693771713729435400,7.727435302734375,0.8111201524734497,1.4824142456054688,2.3092403411865234
1693771713748344600,7.746344482421875,1.7877864837646484,0.48906993865966797,-0.38060569763183594
1693771713767253500,7.76525341796875,3.9156134128570557,0.23424363136291504,-0.07525825500488281
1693771713786162700,7.78416259765625,3.0764477252960205,0.43837857246398926,2.415569305419922
1693771713805072000,7.80307177734375,2.4711978435516357,-0.436495304107666,-0.32651329040527344
1693771713823980800,7.821980712890625,-1.7720106840133667,-1.5172877311706543,-2.6128625869750977
1693771713842890000,7.840889892578125,-3.1525371074676514,-1.772878885269165,-2.675780773162842
1693771713861799200,7.859799072265625,-1.088504672050476,-1.0081915855407715,-0.24889469146728516
1693771713880708400,7.878708251953125,1.5293296575546265,0.7401199340820312,1.5528488159179688
1693771713899617300,7.8976171875,2.523789644241333,1.9582475423812866,2.381331443786621
1693771713918526500,7.9165263671875,2.581094264984131,1.5946671962738037,1.1431541442871094
1693771713937435600,7.935435546875,3.905663251876831,0.5566256046295166,-0.70245361328125
1693771713956344800,7.9543447265625,4.274929046630859,-0.2898728847503662,0.5776739120483398
1693771713975253800,7.973253662109375,-1.5727193355560303,-0.6218986511230469,0.9105558395385742
1693771713994163000,7.992162841796875,-6.963407516479492,0.1947648525238037,0.9451684951782227
1693771714013072100,8.011072021484376,-5.756587505340576,0.8212573528289795,4.004097938537598
1693771714031981000,8.02998095703125,-4.7896013259887695,1.7050025463104248,5.112581253051758
1693771714050890200,8.04889013671875,-2.436187744140625,0.9513804912567139,3.0718889236450195
1693771714069799400,8.06779931640625,0.25475752353668213,-0.47936296463012695,0.4112663269042969
1693771714088708400,8.086708251953125,-0.6908010244369507,-0.27169156074523926,1.188918113708496
1693771714107617500,8.105617431640624,-1.7954845428466797,-0.2599179744720459,2.926905632019043
1693771714126526500,8.1245263671875,-2.4187631607055664,-1.2820923328399658,1.9631223678588867
1693771714145435600,8.143435546875,-4.668931484222412,-2.880842924118042,-0.7268600463867188
1693771714164344800,8.1623447265625,-5.663646697998047,-4.147722244262695,-1.164306640625
1693771714183254000,8.18125390625,-7.531807899475098,-3.530223846435547,1.1716995239257812
1693771714202163200,8.2001630859375,-10.458433151245117,-2.132768392562866,4.860198974609375
1693771714221072100,8.219072021484376,-12.823988914489746,-1.3190815448760986,7.095746040344238
1693771714239981300,8.237981201171875,-12.579288482666016,-1.5371809005737305,7.605625152587891
1693771714258890500,8.256890380859375,-10.178019523620605,-2.112555503845215,7.279280662536621
1693771714277799400,8.27579931640625,-6.95880651473999,-2.6650547981262207,7.363801002502441
1693771714296708600,8.29470849609375,-4.2468791007995605,-2.7990927696228027,6.643787384033203
1693771714315617800,8.31361767578125,-3.854423999786377,-2.605059862136841,6.242033958435059
1693771714334527000,8.33252685546875,-5.554203033447266,-1.9136276245117188,7.315781593322754
1693771714353436000,8.351435791015625,-6.980453968048096,-1.3325538635253906,8.251382827758789
1693771714372345000,8.370344970703124,-3.1163442134857178,-1.332655668258667,8.647981643676758
1693771714391254300,8.389254150390625,1.6292396783828735,-1.4374558925628662,7.935756683349609
1693771714410163200,8.4081630859375,4.617690086364746,-1.86582612991333,5.715234756469727
1693771714429072400,8.427072265625,7.755870819091797,-1.3083279132843018,4.020108222961426
1693771714447981600,8.445981689453125,11.788102149963379,0.30154621601104736,5.128180503845215
1693771714466890800,8.464890869140625,16.499670028686523,0.7709521651268005,5.871920585632324
1693771714485799700,8.483799560546874,17.706695556640625,-0.2454516887664795,2.8088083267211914
1693771714504708900,8.502708984375,15.901117324829102,-1.5343883037567139,-1.4702978134155273
1693771714523618000,8.5216181640625,10.057014465332031,-2.21840763092041,-4.572910308837891
1693771714542527000,8.54052685546875,1.3604249954223633,-2.9052658081054688,-4.150468826293945
1693771714561436200,8.559436279296875,-2.364856719970703,-3.1944353580474854,-4.27173376083374
1693771714580345300,8.578345458984375,1.3587069511413574,-2.632279872894287,-3.0222702026367188
1693771714599254500,8.597254638671876,2.167339324951172,-1.5113191604614258,-1.4144248962402344
1693771714618163500,8.61616357421875,0.7642416954040527,-1.290860652923584,0.610386848449707
1693771714637072600,8.63507275390625,-0.6784095764160156,-0.7942415475845337,1.8749685287475586
1693771714655981800,8.65398193359375,-0.19760894775390625,-0.6716470122337341,0.9507646560668945
1693771714674890800,8.672890869140625,1.6399750709533691,-0.9391324520111084,1.4846100807189941
1693771714693800000,8.691800048828124,-0.4598813056945801,-1.5254420042037964,2.270139694213867
1693771714712709000,8.710709228515626,0.26902008056640625,-1.3863329887390137,0.6006593704223633
1693771714731618000,8.7296181640625,4.162633895874023,-1.4452357292175293,-0.30472230911254883
1693771714750527200,8.74852734375,4.522403240203857,-1.2129050493240356,0.4783177375793457
1693771714769436200,8.767436279296875,5.429691791534424,-0.36265280842781067,1.8588900566101074
1693771714788345300,8.786345458984375,7.540414810180664,0.007183760404586792,0.21329879760742188
1693771714807254500,8.805254638671874,5.22217321395874,-1.013380527496338,-2.1003098487854004
1693771714826163500,8.82416357421875,0.9412746429443359,-1.6644189357757568,-2.1001391410827637
1693771714845072600,8.84307275390625,-2.2575855255126953,-0.38336724042892456,-1.462066650390625
1693771714863981800,8.86198193359375,-1.3817834854125977,0.9494500160217285,0.1278223991394043
1693771714882891000,8.88089111328125,-1.3544597625732422,1.3043352365493774,2.4557580947875977
1693771714901800000,8.899800048828125,-0.4925718307495117,1.1595160961151123,2.5632691383361816
1693771714920709000,8.918709228515626,4.756126880645752,-0.3831871747970581,-0.942547082901001
1693771714939618300,8.937618408203125,10.196016311645508,-2.824784994125366,-4.280570983886719
1693771714958527200,8.95652734375,6.591893196105957,-3.9353814125061035,-6.646211624145508
1693771714977436400,8.9754365234375,-0.4255790710449219,-3.156873941421509,-6.187427520751953
1693771714996345600,8.994345703125,-0.9911842346191406,-0.7377481460571289,-2.069241523742676
1693771715015254500,9.013254638671874,0.14344024658203125,2.032759428024292,2.1733100414276123
1693771715034163700,9.032163818359376,-4.128374099731445,2.662341833114624,6.160141944885254
1693771715053073000,9.051072998046875,-8.327146530151367,2.799315929412842,6.798238277435303
1693771715071982000,9.069982177734374,-1.941793441772461,0.7019608020782471,2.246079206466675
1693771715090891000,9.08889111328125,5.672224998474121,-1.7246506214141846,-2.1335220336914062
1693771715109800200,9.10780029296875,2.6619815826416016,-2.6114611625671387,-2.4163177013397217
1693771715128709400,9.12670947265625,-0.8837881088256836,-0.9081896543502808,-1.8252592086791992
1693771715147618300,9.145618408203125,-0.6497478485107422,0.503836452960968,-0.0991520881652832
1693771715166527500,9.164527587890625,0.4273090362548828,1.1555167436599731,1.7434813976287842
1693771715185436700,9.183436767578126,-1.5681562423706055,2.536689043045044,5.342739105224609
1693771715204345600,9.202345703125,-3.6332931518554688,1.2267557382583618,4.652276992797852
1693771715223255000,9.221255126953125,4.615540027618408,-2.023510456085205,-2.5904316902160645
1693771715242164000,9.2401640625,8.079364776611328,-3.324885845184326,-3.6454100608825684
1693771715261073000,9.259072998046875,0.46750736236572266,-2.595521926879883,-4.0383501052856445
1693771715279982000,9.277982177734375,-3.2641239166259766,-1.4264216423034668,-2.631772041320801
1693771715298891300,9.296891357421876,-0.6266450881958008,0.17914140224456787,0.18916749954223633
1693771715317800200,9.31580029296875,0.5741500854492188,1.7746813297271729,4.467556953430176
1693771715336709400,9.33470947265625,-4.012153625488281,1.8998569250106812,4.638583183288574
1693771715355618600,9.35361865234375,-0.1295337677001953,-0.03569769859313965,-0.6675623655319214
1693771715374527500,9.372527587890625,6.184726715087891,-1.4936277866363525,-0.5641348361968994
1693771715393436700,9.391436767578124,6.466488361358643,-1.2719169855117798,-0.923071026802063
1693771715412345900,9.410345947265625,1.7626190185546875,-0.906012773513794,-2.5865976810455322
1693771715431254800,9.4292548828125,-0.6720066070556641,-0.8479869365692139,-2.338095188140869
1693771715450164000,9.4481640625,3.734769821166992,-0.8659594058990479,-1.5731645822525024
1693771715469073200,9.4670732421875,7.302553176879883,0.6983990669250488,0.4822251796722412
1693771715487982000,9.485982177734375,4.825811386108398,0.9758505821228027,-1.5111297369003296
1693771715506891300,9.504891357421876,1.5793495178222656,2.504204034805298,0.8246476650238037
1693771715525800400,9.523800537109375,0.1798257827758789,3.3155152797698975,2.437183141708374
1693771715544709400,9.54270947265625,0.9543771743774414,2.0678398609161377,0.608802318572998
1693771715563618600,9.56161865234375,8.427303314208984,-1.705231785774231,-3.895311117172241
1693771715582527700,9.58052783203125,14.715682983398438,-3.6189119815826416,-8.204208374023438
1693771715601436700,9.599436767578124,12.116355895996094,-2.793034553527832,-4.784035682678223
1693771715620345900,9.618345947265626,2.800765037536621,-1.8192514181137085,-3.970017671585083
1693771715639255000,9.637255126953125,0.6509456634521484,-1.808180332183838,-5.391973495483398
1693771715658164000,9.6561640625,6.763345241546631,-2.7449936866760254,-4.0656538009643555
1693771715677073200,9.6750732421875,8.064327239990234,-1.1652381420135498,0.3764939308166504
1693771715695982300,9.693982421875,6.237378120422363,-0.09959936141967773,2.373295307159424
1693771715714891300,9.712891357421874,7.825327396392822,-1.7515851259231567,-2.7670211791992188
1693771715733800400,9.731800537109375,5.483363151550293,-3.653926134109497,-1.2437353134155273
1693771715752709600,9.750709716796875,0.8195223808288574,-1.142815113067627,2.1139016151428223
1693771715771618600,9.76961865234375,-2.7882509231567383,0.07090914249420166,4.194938659667969
1693771715790527700,9.78852783203125,1.006063461303711,-1.7584443092346191,-0.7676501274108887
1693771715809437000,9.80743701171875,6.365002632141113,-3.675363540649414,-0.06988000869750977
1693771715828345900,9.826345947265626,4.041710376739502,-1.7840596437454224,1.1732892990112305
1693771715847255000,9.845255126953125,-2.22274112701416,-0.47799360752105713,2.363882064819336
1693771715866164200,9.864164306640625,-4.10093879699707,-1.109161615371704,5.320657730102539
1693771715885073200,9.8830732421875,-0.6324753761291504,-0.6325619220733643,3.2065181732177734
1693771715903982300,9.901982421875,4.084658145904541,0.1379343867301941,2.583712577819824
1693771715922891300,9.920891357421874,3.5982017517089844,-1.5897407531738281,4.3891777992248535
1693771715941800400,9.939800537109376,-2.6064605712890625,-1.9071288108825684,4.212470054626465
1693771715960709600,9.958709716796875,-5.632165431976318,-0.7462644577026367,1.405327320098877
1693771715979618600,9.97761865234375,-0.10886812210083008,-0.8198902606964111,0.142730712890625
1693771715998527700,9.99652783203125,4.191338062286377,-2.4409964084625244,2.5267491340637207
1693771716017437000,10.01543701171875,0.5681843757629395,-1.797289252281189,2.0642876625061035
1693771716036345900,10.034345947265624,-3.3492674827575684,-0.5957231521606445,1.5819602012634277
1693771716055255000,10.053255126953125,-3.2323732376098633,0.32094329595565796,-0.3239097595214844
1693771716074164200,10.072164306640625,2.3027701377868652,-0.5091705322265625,2.026599884033203
1693771716093073200,10.0910732421875,10.133901596069336,-0.8998985290527344,5.157736778259277
1693771716111982300,10.109982421875,1.5933961868286133,0.08039510250091553,5.046090126037598
1693771716130891300,10.128891357421875,-9.242630004882812,1.1402852535247803,2.878070831298828
1693771716149800400,10.147800537109376,-6.10030460357666,1.120683193206787,4.75407600402832
1693771716168709600,10.166709716796875,0.6181976795196533,2.3432981967926025,9.582527160644531
1693771716187618600,10.18561865234375,-2.2248666286468506,2.1454386711120605,6.61268424987793
1693771716206527700,10.20452783203125,-5.435641288757324,-1.2509269714355469,-1.153693675994873
1693771716225437000,10.22343701171875,1.7418429851531982,-1.3819100856781006,0.8472328186035156
1693771716244345900,10.242345947265624,2.9589791297912598,0.3840165138244629,5.40782356262207
1693771716263255000,10.261255126953126,-2.641357898712158,-0.20893287658691406,0.9754180908203125
1693771716282164200,10.280164306640625,-1.145019292831421,-2.1609747409820557,-0.26676368713378906
1693771716301073200,10.2990732421875,-0.8310880661010742,-2.1719789505004883,3.2151575088500977
1693771716319982300,10.317982421875,-7.923678398132324,0.08932948112487793,3.9871387481689453
1693771716338891300,10.336891357421875,-5.537962913513184,0.180206298828125,2.483931541442871
1693771716357800400,10.355800537109374,1.065711259841919,-1.4409887790679932,3.495168685913086
1693771716376709600,10.374709716796875,-3.876453399658203,-1.8229434490203857,2.890026092529297
1693771716395618600,10.39361865234375,-9.28408145904541,-1.4144089221954346,0.10542106628417969
1693771716414527700,10.41252783203125,-5.368488311767578,-1.6728601455688477,-0.7990798950195312
1693771716433437000,10.43143701171875,2.2829678058624268,0.14346551895141602,2.808328628540039
1693771716452345900,10.450345947265625,1.893024206161499,1.9360733032226562,4.8741960525512695
1693771716471255000,10.469255126953126,-3.732112169265747,0.4943370819091797,-0.5445480346679688
1693771716490164200,10.488164306640625,1.2227234840393066,-0.9081687927246094,-2.968221664428711
1693771716509073200,10.5070732421875,8.72437858581543,0.03761577606201172,1.6163711547851562
1693771716527982300,10.525982421875,6.294469833374023,-1.5930523872375488,-0.7185087203979492
1693771716546891300,10.544891357421875,-0.31003493070602417,-2.797433853149414,-6.124462604522705
1693771716565800400,10.563800537109374,-5.007054805755615,-2.2609212398529053,-2.2309722900390625
1693771716584709600,10.582709716796876,-7.181519985198975,0.18015336990356445,2.4167966842651367
1693771716603618600,10.60161865234375,-3.722179651260376,-0.2708709239959717,3.4313058853149414
1693771716622527700,10.62052783203125,-3.0993294715881348,-1.6911487579345703,-1.4370594024658203
1693771716641437000,10.63943701171875,1.3656569719314575,-1.7118606567382812,1.7694101333618164
1693771716660345900,10.658345947265625,4.3550028800964355,-0.27799367904663086,2.7401552200317383
1693771716679255000,10.677255126953124,-0.6916764974594116,-0.2629733085632324,0.5884799957275391
1693771716698164200,10.696164306640625,-4.878829002380371,0.16334939002990723,-0.39244842529296875
1693771716717073200,10.7150732421875,-10.180536270141602,0.38843870162963867,5.124188423156738
1693771716735982300,10.733982421875,-12.996880531311035,0.5102698802947998,4.219928741455078
1693771716754891300,10.752891357421875,-0.8391427993774414,-0.4523434638977051,0.5485286712646484
1693771716773800400,10.771800537109375,6.402851581573486,-0.36804962158203125,0.7383918762207031
1693771716792709600,10.790709716796876,3.836456775665283,0.2731666564941406,3.6812925338745117
1693771716811618600,10.80961865234375,-9.170156478881836,-0.9576998949050903,-1.0502662658691406
1693771716830527700,10.82852783203125,-11.961769104003906,-1.8823585510253906,-5.062443733215332
1693771716849437000,10.84743701171875,0.4529133439064026,-2.5517430305480957,0.6219940185546875
1693771716868345900,10.866345947265625,5.845503330230713,-1.4424972534179688,3.7855300903320312
1693771716887255000,10.885255126953124,-0.735682487487793,-1.7691940069198608,3.42366886138916
1693771716906164200,10.904164306640626,-9.872542381286621,-2.9104092121124268,0.8668375015258789
1693771716925073200,10.9230732421875,-15.315380096435547,-1.7474541664123535,1.871321678161621
1693771716943982300,10.941982421875,-14.814412117004395,1.171944499015808,7.015569686889648
1693771716962891300,10.960891357421875,-8.269058227539062,2.7602455615997314,10.815179824829102
1693771716981800400,10.979800537109375,-2.858973979949951,2.002310276031494,9.977180480957031
1693771717000709600,10.998709716796874,0.726294994354248,1.1333197355270386,5.165753364562988
1693771717019618600,11.01761865234375,2.322876453399658,0.23046183586120605,4.198505401611328
1693771717038527700,11.03652783203125,4.833696365356445,-1.3061286211013794,3.9394845962524414
1693771717057436700,11.055436767578126,5.867966651916504,-2.793807029724121,1.2719688415527344
1693771717076345900,11.074345947265625,2.2063663005828857,-4.163329124450684,-2.2512245178222656
1693771717095255000,11.093255126953125,2.427677631378174,-3.4816367626190186,-2.2692079544067383
1693771717114164000,11.1121640625,3.2433955669403076,-2.7543771266937256,-0.6267461776733398
1693771717133073200,11.1310732421875,-1.944586992263794,-2.414008140563965,0.8307743072509766
1693771717151982000,11.149982177734374,-6.5939483642578125,-1.1462944746017456,3.1209545135498047
1693771717170891300,11.168891357421876,-4.66318416595459,0.047330498695373535,5.576626777648926
1693771717189800400,11.187800537109375,0.18995237350463867,-0.1701156497001648,5.7384490966796875
1693771717208709400,11.20670947265625,4.603318691253662,-0.3867206573486328,4.241914749145508
1693771717227618600,11.22561865234375,8.54626178741455,0.1761065125465393,3.886587142944336
1693771717246527500,11.244527587890625,4.942907333374023,0.9624131917953491,5.588047027587891
1693771717265436700,11.263436767578124,0.515810489654541,0.9785603284835815,4.230525016784668
1693771717284345900,11.282345947265625,2.5118443965911865,-0.9988110065460205,3.9333887100219727
1693771717303254800,11.3012548828125,3.762315511703491,-2.311321258544922,0.5496559143066406
1693771717322164000,11.3201640625,2.2643990516662598,-2.8236565589904785,-2.993485927581787
1693771717341073000,11.339072998046875,4.418303966522217,-2.642760992050171,-2.5443568229675293
1693771717359982000,11.357982177734375,5.124945163726807,-2.3093206882476807,0.04947996139526367
1693771717378891300,11.376891357421876,3.2111716270446777,-1.0315932035446167,-0.6065139770507812
1693771717397800200,11.39580029296875,2.933814525604248,-0.8463409543037415,-0.10645484924316406
1693771717416709400,11.41470947265625,1.465273380279541,-1.4180099964141846,0.9084362983703613
1693771717435618300,11.433618408203126,1.7286486625671387,-0.28521478176116943,3.5342183113098145
1693771717454527500,11.452527587890625,6.563589096069336,1.2035133838653564,3.1218814849853516
1693771717473436700,11.471436767578124,9.208683013916016,1.800241231918335,2.6721677780151367
1693771717492345600,11.490345703125,-0.2970390319824219,1.151673436164856,2.3203811645507812
1693771717511254800,11.5092548828125,-9.630284309387207,0.9494388103485107,3.844386577606201
1693771717530163700,11.528163818359374,-6.8106184005737305,0.1897866427898407,1.6587891578674316
1693771717549073000,11.547072998046875,1.2223587036132812,-2.018789529800415,-0.6699857711791992
1693771717567982000,11.565982177734375,4.840185165405273,-2.4021453857421875,-0.345245361328125
1693771717586891000,11.58489111328125,4.039623260498047,-1.1241182088851929,-0.19749164581298828
1693771717605800200,11.60380029296875,2.958871364593506,-0.8479119539260864,-0.5610861778259277
1693771717624709000,11.622709228515625,-0.7815885543823242,-0.7963130474090576,0.6381306648254395
1693771717643618300,11.641618408203126,-0.8930873870849609,0.016480237245559692,3.499505043029785
1693771717662527200,11.66052734375,2.9427194595336914,0.6989147067070007,1.1326823234558105
1693771717681436400,11.6794365234375,5.013211727142334,-0.6253478527069092,-0.08080172538757324
1693771717700345600,11.698345703125,3.181093692779541,-1.30989408493042,0.6512889862060547
1693771717719254500,11.717254638671875,1.802804946899414,-0.3293401598930359,1.1796066761016846
1693771717738163700,11.736163818359374,3.814697265625,-0.5991031527519226,-1.4765760898590088
1693771717757072600,11.75507275390625,5.551182746887207,-1.5430084466934204,-1.7487610578536987
1693771717775981800,11.77398193359375,3.2808027267456055,0.3069103956222534,-0.0904536247253418
1693771717794891000,11.79289111328125,1.4563827514648438,0.9437888860702515,1.2194616794586182
1693771717813800000,11.811800048828125,3.115243434906006,-0.040609121322631836,-1.5067873001098633
1693771717832709000,11.830709228515625,3.6266422271728516,-1.0015954971313477,-1.7657437324523926
1693771717851618000,11.8496181640625,2.5176992416381836,-0.3349524736404419,-1.7000858783721924
1693771717870527200,11.86852734375,4.093585014343262,0.13258063793182373,-2.5647499561309814
1693771717889436200,11.887436279296875,4.838183403015137,0.0448305606842041,-2.1814839839935303
1693771717908345300,11.906345458984376,3.678206443786621,0.4193260669708252,-1.353790283203125
1693771717927254500,11.925254638671875,8.608647346496582,0.6215102672576904,-0.6814212799072266
1693771717946163500,11.94416357421875,9.49147891998291,-0.5163934230804443,-3.8513166904449463
1693771717965072600,11.96307275390625,5.789728164672852,-0.967125415802002,-5.720686912536621
1693771717983981800,11.98198193359375,5.611207962036133,0.8949723243713379,-0.4776803255081177
1693771718002890800,12.000890869140624,7.1747331619262695,3.0283517837524414,1.9915943145751953
1693771718021800000,12.019800048828126,5.49637508392334,1.481895923614502,-1.4707539081573486
1693771718040708900,12.038708984375,3.2180957794189453,-1.3901658058166504,-4.605025291442871
1693771718059618000,12.0576181640625,4.13675594329834,-1.6047807931900024,-4.804162979125977
1693771718078527200,12.07652734375,8.663546562194824,-1.4765102863311768,-4.797408103942871
1693771718097436200,12.095436279296875,7.523614883422852,-1.285347580909729,-4.350985527038574
1693771718116345300,12.114345458984374,2.0399341583251953,-0.773680567741394,-1.8536075353622437
1693771718135254300,12.133254150390625,0.3271322250366211,0.7699698209762573,3.2682244777679443
1693771718154163500,12.15216357421875,1.722243309020996,1.0113842487335205,1.8359262943267822
1693771718173072400,12.171072265625,5.536713600158691,-1.503130316734314,-1.3766164779663086
1693771718191981600,12.189981689453125,3.862687587738037,-3.0224852561950684,-3.4110794067382812
1693771718210890800,12.208890869140625,1.6087093353271484,-2.0374279022216797,-2.0727767944335938
1693771718229799700,12.227799560546876,0.19878005981445312,-0.535053551197052,0.7988905906677246
1693771718248708900,12.246708984375,1.4471988677978516,-0.04919302463531494,3.189870834350586
1693771718267617800,12.26561767578125,2.6081504821777344,-1.0199350118637085,3.7487645149230957
1693771718286527000,12.28452685546875,-0.3229069709777832,-1.3852932453155518,-0.33060121536254883
1693771718305436000,12.303435791015625,-2.218173027038574,-1.2563103437423706,-0.7766942977905273
1693771718324345000,12.322344970703124,-0.7967586517333984,-0.1566362977027893,2.4059042930603027
1693771718343254000,12.34125390625,0.2724933624267578,-0.10719802975654602,5.648087024688721
1693771718362163200,12.3601630859375,1.958481788635254,-0.39964592456817627,1.6972079277038574
1693771718381072400,12.379072265625,1.5670294761657715,-1.143520474433899,-0.02561187744140625
1693771718399981300,12.397981201171875,-2.1556787490844727,-1.2072784900665283,-0.029753684997558594
1693771718418890500,12.416890380859375,0.9443073272705078,-0.7700248956680298,4.703525543212891
1693771718437799400,12.43579931640625,0.33888816833496094,0.7672072052955627,3.833028793334961
1693771718456708600,12.45470849609375,0.9617657661437988,-0.15632452070713043,1.052462100982666
1693771718475617500,12.473617431640625,-0.3366532325744629,-2.0217843055725098,0.015750885009765625
1693771718494526700,12.492526611328126,0.5594534873962402,-1.9247853755950928,1.3495607376098633
1693771718513435600,12.511435546875,-0.5225715637207031,0.09672939777374268,3.2506961822509766
1693771718532344800,12.5303447265625,-0.3852243423461914,0.4618173837661743,3.1224966049194336
1693771718551254000,12.54925390625,0.9521956443786621,-2.3253419399261475,1.5010881423950195
1693771718570163000,12.568162841796875,3.0249147415161133,-2.5325863361358643,1.5657720565795898
1693771718589072100,12.587072021484374,-2.3010151386260986,-1.2970433235168457,2.121249198913574
1693771718607981000,12.60598095703125,-4.8973388671875,-0.37134861946105957,1.9226713180541992
1693771718626890200,12.62489013671875,-1.8856487274169922,-0.11323487758636475,4.036977767944336
1693771718645799400,12.64379931640625,-1.0898685455322266,0.36491286754608154,6.007683753967285
1693771718664708400,12.662708251953125,-4.379174709320068,1.065243124961853,5.469077110290527
1693771718683617500,12.681617431640625,-5.890937805175781,0.59306800365448,3.3208999633789062
1693771718702526500,12.7005263671875,-1.6949210166931152,-0.7914183139801025,0.4169645309448242
1693771718721435600,12.719435546875,4.744782447814941,-1.0151429176330566,1.0195198059082031
1693771718740344600,12.738344482421875,5.762669563293457,-0.6682685613632202,1.0949134826660156
1693771718759253800,12.757253662109376,-0.14593005180358887,-0.08139228820800781,0.6732883453369141
1693771718778163000,12.776162841796875,-3.4187729358673096,0.2932647466659546,1.2884244918823242
1693771718797072000,12.79507177734375,1.057838797569275,1.2623004913330078,1.6834936141967773
1693771718815981000,12.81398095703125,4.9316253662109375,1.6144397258758545,3.3195457458496094
1693771718834890000,12.832889892578125,4.238235950469971,0.14477944374084473,1.1550102233886719
1693771718853799200,12.851799072265624,2.0494585037231445,-2.691559076309204,-2.2305707931518555
1693771718872708000,12.8707080078125,0.4474917948246002,-2.8945345878601074,-2.5096588134765625
1693771718891617300,12.8896171875,-3.69207501411438,-1.100974440574646,0.6312894821166992
1693771718910526200,12.908526123046874,-6.999710559844971,1.1720044612884521,5.041635513305664
1693771718929435400,12.927435302734375,-6.403815746307373,2.1983742713928223,6.489697456359863
1693771718948344300,12.94634423828125,-5.185820579528809,0.6047254800796509,5.977355003356934
1693771718967253500,12.96525341796875,-1.7430057525634766,-0.704214334487915,1.8381834030151367
1693771718986162400,12.984162353515625,-0.05078160762786865,-1.6176493167877197,1.8725452423095703
1693771719005071600,13.003071533203125,-6.643617630004883,-0.31782495975494385,3.2102975845336914
1693771719023980500,13.02198046875,-8.176163673400879,0.2874540090560913,-0.5905170440673828
1693771719042889700,13.0408896484375,-8.479265213012695,-0.9566082954406738,3.007187843322754
1693771719061799000,13.059798828125,-2.4229066371917725,-0.46010124683380127,2.92694091796875
1693771719080707800,13.078707763671876,1.874744176864624,-0.3278062343597412,3.9352684020996094
